Folder: SuperCap_Aging_Assistant/data/demo_data/eis_before_aging

Note: README.md
# SuperCap Aging Assistant Documentation

***Installer for current build can be found in the "Releases" tab to the right -->***
<br/>

## *File Requirements*
 
- **Aging Data**: .csv file generated from Landt Instruments V7.4 software[^1], columns for test time (units: seconds), voltage (units: volts), current (units: microamps), cycle number,
  and status (expected: CCD, CCC, and CVC)
- **Cyclic Voltammograms**: .txt files generated from BioLogic's EC-Lab software[^2], columns for time (units: seconds), voltage (units: volts), current (units: milliamps), and cycle number
- **Electrochemical Impedance Spectra**: .txt files generated from BioLogic's EC-Lab software, columns for frequency (units: hertz), real impedance (Re(Z), units: ohms), and imaginary
  impedance (-Im(Z), units: ohms)  

*Demo files for the current build are included for reference in the application's home directory that was created by the installer* 
<br/>
<br/>

## *Accelerated Aging of Supercapacitor Electrodes*

This application automates the processing and visualiation of data generated during acclerated electrochemical aging experiments performed on supercapacitors.[^3] A general aging experiment
proceeds as follows: (1) Pre-aging electrochemical characterization using cyclic voltammetry (CV) and electrochemical impedance spectroscopy (EIS), (2) An extended aging procedure of repeated "aging cycles" consisting of galvanostatic cycling and constant voltage floating (example in image below), and (3) Post-aging electrochemical characterization again using CV and EIS.
  
*Note: It is not required to fill in all of the file import fields, feel free to pick and choose the sections that are applicable for you.*
  
<img ref here>
Example of an electrochemical "aging cycle".[^4]
<br/>
<br/>

## *Calculations Performed*

The primary calculations performed by the application are the following:
  
Aging Data:
- Capacitance Fade:  
For every aging cycle, linear fitting is performed for both the charge and discharge branches of the galvanostatic cycle defined by the user (default is the sixth cycle). The slope of the fit line is used to determine capacitance (in F/g) according to the following equation:
<p align=center>Capacitance (F/g) = (<i>2 * i</i>) / (<i>slope * mass</i>) (<i>eq.</i> 1)</p>

&nbsp;&nbsp;&nbsp;&nbsp;&nbsp;&nbsp;&nbsp;&nbsp;where, *i* is the applied current and mass is the electrode mass.  

- IR Drop Increase:  
For every aging cycle, the IR drop is recorded for the galvanostatic cycle defined by the user (default is the sixth cycle). The IR drop (in ohm*cm^2) is calculated from the difference between the last point of with the following equation:
<p align=center>IR Drop (ohm * cm^2) = (<i>V<sub>C</sub> - V<sub>D</sub></i>) / (<i>i * area</i>) (<i>eq.</i> 2)</p>

&nbsp;&nbsp;&nbsp;&nbsp;&nbsp;&nbsp;&nbsp;&nbsp;where, *V<sub>C</sub>* is the last voltage value recorded during the charge branch of the cycle, *V<sub>D</sub>* is the first voltage value recorded during th

File: test_eis_OCV_before_aging.txt
freq/Hz	Re(Z)/Ohm	-Im(Z)/Ohm	|Z|/Ohm	Phase(Z)/deg	time/s	<Ewe>/V	<I>/mA
199998	0.765252	-0.0418243	0.766394	3.12835	44407.5	0.00094362	0.22224
135281	0.800301	0.0231031	0.800634	-1.65356	44408.6	0.000945036	0.22034
91504.6	0.839843	0.0658679	0.842422	-4.48446	44409.6	0.000946229	0.217693
61896.9	0.880733	0.0945901	0.885798	-6.13003	44410.7	0.000960055	0.218886
41864.6	0.921752	0.109235	0.928202	-6.75847	44411.7	0.000952639	0.214712
28318	0.963053	0.113737	0.969746	-6.73547	44412.7	0.000948204	0.217731
19150.8	0.998564	0.11063	1.00467	-6.32196	44413.7	0.00095249	0.217507
12952.8	1.02783	0.104	1.03308	-5.77776	44414.5	0.000942278	0.213333
8768.19	1.05548	0.0966938	1.0599	-5.23433	44415.5	0.000109773	0.209456
5928.96	1.07627	0.0900285	1.08003	-4.78159	44416.4	9.7587e-05	0.210463
4011.4	1.09586	0.0843181	1.0991	-4.3998	44417.4	0.000103699	0.210724
2713.04	1.11404	0.0805669	1.11695	-4.13642	44418.8	0.000109326	0.215271
1834.41	1.13172	0.0796639	1.13452	-4.02652	44420.3	0.000111748	0.20927
1241.19	1.14798	0.0791058	1.1507	-3.94195	44421.8	0.00011227	0.207928
839.196	1.16469	0.0825507	1.16761	-4.05423	44423.4	0.00011104	0.213183
567.639	1.18193	0.0868702	1.18512	-4.20358	44424.9	0.000112084	0.207556
384.139	1.19958	0.0952793	1.20335	-4.54133	44426.4	0.000119202	0.202748
259.75	1.22069	0.107331	1.2254	-5.02487	44427.9	0.000122519	0.206847
175.731	1.24304	0.121103	1.24893	-5.56448	44429.4	0.00011473	0.207257
118.821	1.26887	0.144308	1.27705	-6.48836	44431	0.000114357	0.214264
80.3858	1.29866	0.169693	1.3097	-7.44456	44432.5	0.000108618	0.213146
54.3908	1.33362	0.201322	1.34873	-8.58452	44434	0.000118829	0.210835
36.777	1.37663	0.246269	1.39848	-10.1425	44435.4	0.000114879	0.21214
24.8805	1.42977	0.295475	1.45999	-11.6763	44437	0.000119835	0.217842
16.8252	1.49869	0.358839	1.54106	-13.4651	44438.5	0.000109512	0.00686768
11.3802	1.57248	0.431696	1.63067	-15.3513	44439.9	0.000129376	0.00803475
7.69705	1.66197	0.521745	1.74195	-17.4287	44441.8	0.000113425	0.00753882
5.20834	1.75794	0.629046	1.8671	-19.6888	44443.3	0.000107835	-0.000250412
3.52231	1.85882	0.764589	2.00992	-22.3589	44445.4	0.000107481	0.0115285
2.38258	1.94657	0.954536	2.16801	-26.1219	44448.5	0.000117351	0.00574166
1.61248	2.01863	1.2465	2.37248	-31.6953	44453	0.000122899	0.00847403
1.08992	2.08574	1.69121	2.68524	-39.0366	44460.7	0.00011746	-0.011321
0.737309	2.15597	2.37252	3.20578	-47.7377	44470.5	0.000104314	-0.0126984
0.498883	2.24196	3.37074	4.04825	-56.3712	44485	0.000115117	-0.0139624
0.33724	2.3421	4.8617	5.39644	-64.2778	44506.5	0.000108059	-0.00982649
0.228169	2.51926	7.03898	7.47622	-70.3077	44538.2	0.000112172	-0.0103899
0.154275	2.74927	10.2125	10.5761	-74.9328	44585	0.000100511	-0.009946
0.104445	3.12927	14.8252	15.1519	-78.0811	44654.1	0.000116408	-0.00891002
0.0706606	3.7012	21.5135	21.8296	-80.2383	44770.5	9.9836e-05	-0.0098811
0.0477706	4.63418	31.166	31.5086	-81.5425	44921.6	0.000107054	-0.00871051
0.0323293	5.86983	45.1778	45.5575	-82.5972	45144.9	0.000112537	-0.00811251
0.0218573	7.96496	65.3655	65.849	-83.0526	45475.1	0.000119744	-0.00718368
0.0147807	10.6677	94.5569	95.1568	-83.5632	45963.3	0.000109082	-0.00618844
0.00999726	14.3217	136.434	137.184	-84.0075	46685.2	0.000106409	-0.00539325